File: data/LiCoO2/Powder-data-Bruker/LiCoO2.UXD
; E:\COD-all\Powbase-to-COD\fullprof\LiCoO2\LiCoO2.RAW - (Diffrac AT V1) File converted by XCH V1.0
_FILEVERSION=1
_SAMPLE='LICoO2'
_WL1=1.540600
_WL2=1.544430
_WL3=1.392600
_WLRATIO=0.514000
_ANODE='Cu'
; (Data for Range number 1)
_DRIVE='COUPLED'
_STEPTIME=12.5
_STEPSIZE=0.030000
_STEPMODE='C'
_START=15.985
_2THETA=15.985
_THETA=0.000000
_KHI=0.000000
_PHI=0.000000
_COUNTS
      649       609       622       618       611       622       638       607
      608       634       648       643       641       652       630       582
      611       613       607       627       617       630       615       633
      636       652       618       593       632       630       631       632
      645       586       566       615       608       665       680       658
      674       640       633       633       619       640       617       609
      634       633       627       612       594       618       580       568
      656       565       594       607       609       654       589       609
      638       639       608       648       675       649       688       751
      731       747       831       901       902       888       847       892
     1010      1056      1196      1327      1496      1614      1958      2109
     2432      2794      3039      3631      4259      4952      5855      6912
     8377     10405     13680     19619     27710     35944     38405     30718
    19088      9359      4261      2518      2086      1814      1718      1429
     1223      1034       861       814       814       676       667       652
      671       638       649       616       649       614       615       594
      621       634       598       628       636       597       649       586
      614       596       627       653       607       596       584       641
      560       630       549       608       575       588       555       572
      578       600       555       565       537       589       554       584
      538       533       539       507       566       550       534       554
      562       519       521       581       530       565       557       548
      561       556       592       566       563       540       585       525
      569       571       548       549       540       551       565       591
      483       505       556       573       530       541       540       515
      526       582       537       548       591       534       516       534
      544       521       576       542       535       548       517       535
      556       502       553       549       518       545       518       573
      541       545       524       571       544       554       543       518
      547       522       511       585       539       525       526       531
      578       522       560       530       545       516       514       556
      546       560       509       523       563       540       528       546
      532       492       504       537       548       544       504       525
      560       508       513       525       475       492       536       518
      512       519       506       506       484       527       547       565
      496       537       460       521       530       538       490       500
      504       465       511       474       479       493       472       450
      515       494       512       492       434       492       496       528
      500       531       506       445       490       484       506       497
      520       549       505       497       516       505       509       484
      535       481       510       494       451       475       530       488
      490       476       494       478       465       515       475       514
      485       431       502       472       477       545       521       463
      460       511       479       484       473       457       426       513
      471       491       488       478       461       482       485       476
      457       463       472       447       470       422       473       433
      495       468       481       473       442       474       439       463
      499       468       480       485       511       457       481       473
      457       474       471       471       468       494       472       492
      444       456       485       489       461       469       485       435
      460       505       437       476       429       438       454       440
      423       485       441       480       445       466       480       512
      415       445       500       425       455       471       414       466
      466       468       431       435       460       455       470       504
      467       482       469       440       472       435       454       444
      445       421       470       520       436       431       438       439
      451       446       439       459       469       459       450       423
      445       451       433       455       450       451       501       472
      466       429       441       466       449       442       471       494
      435       406       432       462       415       436       453       474
      474       459       441       437       403       439       465       474
      448       440       500       456       499       453       465       461
      440       436       475       456       452       422       474       437
      454       421       453       453       423       430       456       444
      413       389       460       446       444       458       439       433
      422       452       455       435       435       440       440       454
      463       469       460       460       488       475       464       473
      465       406       398       441       443       484       426       416
      431       448       452       438       403       446       438       409
      412       432       395       436       410       444       433       452
      437       435       397       425       457       447       430       439
      434       405       446       420       444       431       392       453
      456       433       426       446       417       415       420       422
      439       425       460       460       406       410       425       444
      402       455       484       443       419       405       403       459
      414       437       438       470       416       463       412       432
      484       443       473       449       458       452       482       428
      403       440       389       394       425       397       422       423
      418       417       424       409       441       396       444       462
      434       417       459       455       433       419       402       417
      424       409       438       423       414       422       407       418
      407       407       401       448       412       427       402       447
      406       429       420       405       440       443       445       460
      460       425       416       390       418       451       397       421
      459       456       428       422       465       443       419       443
      442       427       416       452       453       407       406       438
      395       416       420       394       404       406       455       481
      468       439       480       493       469       496       490       563
      562       631       635       647       764       857       912      1102
     1385      1885      2669      3947      6038      7459      7073      5601
     4808      3979      2562      1383       911       754       666       659
      582       545       525       463       502       479       462       476
      504       487       492       515       489       536       540       513
      565       659       706       778       945      1325      1943      2386
     2008      1493      1457      1310       893       649       529       552
      557       546       514       532       532       551       587       703
      722       926      1193      1659      2420      2805      2369      1909
     1776      1578      1012       725       561       558       544       496
      503       491       458       445       419       475       465       445
      417       436       456       450       422       411       430       429
      397       424       441       419       414       419       415       422
      436       447       414       437       388       425       398       467
      361       405       411       460       407       421       393       400
      393       447       449       423       420       415       406       414
      424       413       382       400       389       413       432       441
      416       412       369       385       386       424       381       391
      397       441       440       424       409       426       430       424
      425       372       420       414       385       397       385       403
      369       386       418       408       417       390       414       401
      393       378       415       394       386       450       436       423
      407       407       401       388       425       388       376       391
      401       426       404       404       403       416       432       431
      383       403       373       381       431       424       415       417
      395       409       427       421       453       388       486       455
      475       487       471       399       427       382       406       364
      411       402       430       393       412       434       398       404
      388       373       390       430       377       407       394       384
      411       394       419       370       420       404       393       407
      438       431       398       427       445       411       427       444
      468       440       415       458       443       453       511       513
      515       525       569       559       648       764       763       865
      946       999      1099      1483      1680      2229      3055      4663
     7606     11968     15350     14634     10731      9005      9170      7758
     4920      2538      1573      1162       980       951       770       728
      620       583       542       506       490       530       484       451
      496       475       491       449       436       442       430       447
      438       436       411       436       415       391       432       431
      436       451       427       444       414       400       390       426
      407       380       447       408       429       405       432       386
      422       409       397       401       391       439       404       402
      424       383       411       398       404       406       390       411
      443       422       388       401       417       434       405       408
      398       432       403       412       400       398       377       418
      410       427       425       454       387       394       383       409
      361       402       420       399       410       402       389       388
      394       400       429       413       442       428       416       391
      388       404       396       415       390       434       403       371
      396       428       411       425       436       407       446       426
      426       466       429       436       499       469       495       541
      599       640       677       859      1251      1916      2844      3013
     2600      1791      1660      1890      1650      1139       741       623
      532       497       454       430       486       402       423       411
      418       411       419       431       407       395       405       400
      392       426       359       400       389       430       412       390
      393       386       411       401       407       392       362       394
      409       376       412       388       410       431       390       435
      415       401       396       402       411       385       368       368
      400       414       377       412       372       394       404       433
      388       381       407       382       366       351       370       401
      415       373       444       397       398       387       393       379
      393       391       354       398       384       368       376       388
      381       369       380       402       368       376       391       417
      407       408       403       373       402       328       379       375
      446       377       374       398       384       405       410       371
      386       388       420       393       388       386       429       350
      404       391       407       387       395       393       402       411
      376       375       397       409       432       397       378       385
      398       386       388       407       384       390       399       382
      403       390       380       389       401       384       371       429
      439       406       444       394       396       393       391       378
      383       403       370       373       388       370       389       377
      425       421       379       388       401       379       418       339
      360       364       376       389       386       386       387       389
      412       402       369       384       369       384       406       435
      373       397       403       368       385       369       398       382
      368       393       404       382       392       384       376       401
      397       378       388       377       382       375       364       404
      402       377       385       368       407       369       391       376
      360       385       380       423       397       379       384       398
      409       401       382       433       389       389       386       406
      377       387       423       388       399       426       403       378
      406       421       433       382       413       397       376       339
      356       368       413       379       373       379       407       396
      373       396       368       413       378       390       375       391
      367       395       382       358       407       404       402       364
      392       416       360       401       403       389       374       349
      376       388       371       372       367       388       387       382
      410       424       401       426       399       407       377       403
      416       466       431       408       391       419       419       393
      418       415       419       423       467       470       571       586
      760       949      1005       821       672       667       734       853
      769       660       651       572       647       832      1110      1545
     2383      3210      3318      2368      1695      1590      1874      2076
     1779      1188       765       630       510       528       466       434
      458       439       467       442       460       423       367       444
      370       403       421       372       381       385       413       404
      404       375       387       372       385       385       405       391
      404       409       434       408       369       411       416       388
      378       396       412       409       401       382       393       396
      359       402       415       396       375       378       418       405
      417       417       426       410       399       424       362       420
      384       386       388       368       381       398       452       445
      385       412       378       421       399       395       393       406
      408       395       402       396       391       390       402       424
      396       397       370       384       377       417       387       366
      369       373       374       388       373       361       428       427
      395       393       395       388       350       403       392       399
      403       378       375       399       394       405       378       397
      383       370       370       394       367       413       388       404
      399       385       396       425       422       414       401       387
      394       419       411       380       368       392       384       407
      391       403       394       374       400       392       389       397
      413       403       376       419       386       382       394       420
      403       401       404       383       391       357       423       402
      437       418       459       447       437       460       470       516
      559       539       529       569       553       605       749       880
     1166      1750      2952      4200      4427      3198      2041      1601
     1955      2497      2699      2126      1297       842       687       570
      587       554       533       542       496       516       493       517
      519       571       531       591       618       746       876      1357
     2157      3405      3845      3093      1890      1463      1462      2026
     2375      2186      1372       880       652       585       530       505
      501       473       467       454       424       429       415       402
      425       422       407       412       372       438       416       427
      398       397       415       411       395       404       403       367
      430       410       395       402       409       428       371       386
      390       367       392       422       413       386       392       404
      387       416       402       374       384       410       361       406
      369       378       402       402       395       403       379       382
      379       375       403       423       412       404       364       381
      396       406       374       387       353       409       420       423
      398       361       392       407       427       401       449       368
      387       404       418       439       470       442       455       469
      476       488       508       551       605       738       968      1476
     2262      2918      2458      1705      1099      1000      1253      1685
     1829      1476       917       657       575       519       454       481
      438       424       415       371       425       375       394       403
      378       385       409       384       388       396       335       423
      359       383       409       426       389       413       357       376
      371       357       379       353       380       359       427       362
      355       408       362       361       394       394       387       383
      352       366       413       385       377       387       383       416
      388       383       393       363       403       393       366       370
      384       392       371       388       416       389       387       362
      372       407       374       376       401       389       364       335
      375       388       403       359       367       395       360       389
      383       402       401       383       389       370       417       404
      354       359       350       419       355       359       411       412
      366       384       345       362       383       414       413       386
      383       385       364       373       385       364       369       405
      382       401       396       386       392       400       375       381
      392       409       369       370       421       377       390       379
      412       378       369       385       369       389       345       392
      400       411       372       350       422       400       413       356
      385       376       362       368       392       410       364       408
      403       406       401       383       420       391       386       390
      424       400       379       405       429       362       400       402
      378       376       377       386       402       378       390       377
      400       390       365       391       383       385       380       386
      383       385       388       353       407       379       383       370
      375       382       368       374       411       412       391       394
      389       379       373       392       389       375       364       355
      429       372       375       363       370       385       365       378
      350       382       393       352       361       412       374       359
      403       376       387       375       363       363       399       394
      386       393       385       380       371       388       393       364
      376       380       377       390       371       347       345       387
      373       368       372       363       389       384       384       383
      368       363       372       418       374       405       381       373
      380       393       420       413       423       455       430       391
      422       439       468       522       540       695       865       956
      881       691       616       665       804      1074      1269      1212
      937       736       627       604       632       802       775       677
      632       518       465       441       460       441       479       537
      592       744      1015      1130      1047       885       627       551
      561       652       753       859       821       680       550       598
      741       731       736       580       476       474       442       507
      572       577       587       511       446       417       452       392
      383       398       358       369       396       358       369       379
      374       391       386       381       380       392       395       354
      364       378       364       385       399       369       368       385
      373       349       359       388       370       387       373       396
      357       380       390       340       395       410       401       387
      366       379       403       414       383       385       394       405
      384       411       399       390       408       405       396       383
      420       404       406       368       411       431       439       391
      465       528       603       755      1109      1204      1026       748
      597       498       519       623       726       858       849       665
      474       445       445       391       398       384       413       394
      358       389       401       366       385       372       405       399
      362       398       382       380       405       396       371       359
      373       373       424       366       417       423       440       438
      407       454       466       414       443       450       498       520
      555       724      1142      1754      2194      1917      1394       968
      715       668       706       919      1254      1398      1166       869
      640       514       476       445       451       402       427       398
      397       405       387       373       388       411       415       405
      413       401       358       398       356       383       378       360
      398       381       385       374       383       385       364       426
      386       407       379       416       386       393       414       419
      435       448       443       395       492       487       519       591
      791       993      1385      1374      1122       807       617       548
      566       686       815       939       924       785       598       547
      502       417       434       437       407       461       406       409
      395       444       401       392       427       411       405       437
      396       391       405       401       415       381       421       423
      468       489       556       726       690       614       557       432
      413       408       475       501       500       542       526       483
      423       441       421       367       402       423       383       413
      389       346       406       375       399       372       374       360
      368       409       377       400       368       387       359       395
      388       384       375       401       412       401       363       441
      391       385       376       433       377       354       420       359
      345       358       380       386       385       375       422       406
      366       356       353       394       370       343       370       413
      387       364       383       408       393       376       371       373
      388       369       420       383       366       362       394       380
      356       388       352       398       402       356       344       367
      389       347       396       377       356       371       370       389
      367       351       397       403       349       356       399       356
      363       433       355       375       385       421       402       346
      338       376       377       384       366       358       363       383
      398       386       352       371       414       384       402       350
      374       377       336       358       363       361       382       369
      355       367       349       355       352       382       368       382
      384       394       398       412       418       395       390       376
      379       386       397       331       350       378       336       380
      377       371       364       331       369       348       377       398
      412       359       382       366       380       379       373       377
      378       381       354       372       420       391       409       402
      344       339       388       383       365       415       356       414
      380       393       352       357       391       395       368       417
      371       370       400       362       398       404       344       372
      376       366       326       389       379       368       379       353
      397       363       388       369       360       388       388       364
      383       364       369       368       395       372       366       372
      329       375       395       366       383       360       346       363
      405       362       372       417       392       403       416       399
      394       395       415       418       447       448       458       540
      699       878       923       669       665       538       468       447
      453       504       527       682       732       760       898       962
      949       831       689       541       488       509       469       448
      531       654       666       697       543       478       446       435
      386       386       384       390       387       387       371       361
      366       373       374       391       396       396       387       384
      395       375       355       351       396       348       396       372
      362       362       372       370       374       371       359       364
      382       380       356       387       374       361       352       384
      384       368       386       379       375       361       372       354
      368       367       342       398       337       391       374       352
      399       398       393       398       402       390       393       400
      360       382       369       349       340       369       390       399
      346       363       373       354       389       355       367       377
      360       405       377       355       395       358       342       385
      376       386       390       365       360       374       380       366
      357       378       390       411       378       389       346       372
      379       353       371       376       355       386       360       385
      384       406       384       400       355       368       402       360
      394       389       353       367       358       355       363       362
      373       360       354       365       376       360       392       408
      420       376       386       431       396       392       367       400
      395       360       404       382       389       423       404       424
      446       512       532       752       905      1144      1165       894
      722       598       532       488       498       513       547       599
      788       818       772       672       547       496       477       468
      453       419       374       387       398       376       367       382
      369       370       402       398       433       357       374       375
      384       383       343       370       382       375       393       384
      383       391       358       397       417       376       408       390
      358       386       385       388       377       383       390       419
      371       493       433       463       531       577       549       523
      427       419       408       411       415       411       439       444
      445       492       463       434       358       418       392       358
      410       380       360       379       413       378       381       385
      342       369       367       364       362       356       387       364
      384       383       344       405       369       387       361       386
      377       339       340       369       393       393       393       373
      380       365       359       416       396       365       378       383
      350       408       364       367       356       357       343       409
      379       392       365       375       372       387       411       390
      314       366       381       372       382       369       356       350
      357       379       375       397       376       354       343       328
      409       363       371       350       355       350       360       394
      340       386       365       413       382       352       379       327
      348       383       352       358       355       355       359       356
      361       389       383       391       374       338       409       360
      373       351       373       369       334       383       408       397
      380       407       347       385       383       398       373       393
      358       368       378       375       360       414       382       390
      375       396       357       367       340       348       374       404
      381       408       395       385       400       360       334       341
      352       379       360       385       357       335       361       381
      379       350       338       389       346       396       376       339
      321       408       407       378       390       373       365       393
      369       350       372       332       318       351       360       378
      362       403       365       392       392       352       332       344
      370       382       427       395       350       401       363       370
      341       370       378       372       356       411       374       378
      399       365       347       392       368       340       372       372
      364       403       344       384       380       352       372       390
      393       370       378       385       383       407       366       356
      383       360       393       374       405       367       377       384
      376       354       355       392       385       376       358       398
      379       380       385       385       415       379       416       427
      388       451       410       478       502       577       642       643
      561       454       398       396       405       393       446       424
      445       401       437       543       533       477       459       421
      404       401       403       389       369       347       399       393
      380       400       386       412       380       381       376       368
      394       396       377       342       411       380       388       369
      371       414       393       421       393       408       433       489
      540       603       639       596       542       440       406       413
      384       407       374       389       431       460       453       504
      537       497       467       423       419       430       396       385
      380       412       369       374       386       353       364       423
      365       417       400       393       423       361       385       386
      457       386       413       464       473       566       592       564
      581       543       518       574       693       859       945       866
      721       620       616       598       576       528       544       492
      477       518       520       637       638       690       652       571
      506       484       466       444       405       427       429       399
      372       416       423       399       419       415       439       403
      448       496       568       642       683       626       576       518
      443       460       442       427       395       421       445       436
      443       500       562       599       519       496       434       454
      413       388       400       373       386       373       368       377
      404       373       349       371       399       366       389       372
      374       373       350       340       389       349       377       390
      367       372       387       400       371       358       362       375
      387       386       380       380       367       429       368       393
      404       372       379       339       400       409       381       392
      428       414       440       405       436       425       387       412
      450       438       393       401       411       471       426       449
      495       483       572       651       728       877      1138      1403
     1646      1526      1212       944       780       607       624       562
      515       563       571       559       623       714       858       970
     1072       951       818       690       635       532       471       480
      439       411       445       437       422       427       405       416
      376       378       407       380       403       392       393       382
      424       375       379       419       407       366       389       418
      408       389       429       449       443       484       438       475
      489       534       571       747      1008      1252      1554      1626
     1426      1224       934       704       667       643       572       577
      523       547       542       600       680       790       989      1091
     1000       877       759       651       570       508       507       458
      439       425       395       398       391       376       407       391
      361       380       399       374       381       386       379       395
      382       420       377       364       357       397       355       403
      401       380       390       385       429       439       375       397
      401       388       378       417       423       425       413       432
      447       490       452       505       545       647       750       748
      768       641       574       529       505       431       458       423
      432       437       432       467       484       465       556       588
      605       588       543       517       469       427       427       411
      401       418       423       410       368       412       412       381
      405       403       429       358       394       401       410       442
      399       447       433       482       513       609       701       840
      905       829       700       621       567       497       502       442
      467       421       412       390       447       455       450       505
      567       651       664       578       514       542       466       439
      441       401       380       424       424       419       400       425
      387       374       396       398       390       356       383       376
      371       381       385       398       397       383       387       357
      360       351       360       385       356       383       385       375
      369       370       385       369       369       394       385       409
      377       375       364       345       385       370       374       382
      369       395       350       363       376       352       360       370
      379       338       390       346       382       382       390       352
      382       360       384       366       337       394       362       398
      367       355       402       345       356       365       368       387
      375       371       361       369       349       377       381       369
      363       362       388       355       357       395       372       383
      386       344       392       393       384       369       369       383
      369       406       339       390       357       399       401       361
      360       360       380       356       354       359       339       341
      371       370       360       341       371       395       369       381
      375       396       382       356       405       374       387       398
      348       360       378       361       367       361       384       379
      358       367       375       369       377       361       345       375
      371       351       375       368       394       389       349       389
      377       359       386       368       378       373       368       365
      353       364       379       341       357       406       360       374
      348       412       336       395       377       430       377       351
      372       353       345       385       368       399       381       344
      381       376       389       345       361       343       377       355
      369       420       363       394       371       373       356       362
      374       377       376       365       364       361       367       381
      361       369       363       408       364       391       381       358
      387       378       397       347       366       378       352       343
      381       366       363       414       381       398       356       374
      347       379       410       416       336       391       380       367
      407       378       363       378       371       345       371       374
      410       356       349       401       353       364       417       391
      367       383       348       377       350       390       367       352
      348       366       391       397       379       368       352       382
      390       346       379       358       352       428       392       384
      398       412       360       372       387       350       396       370
      354       383       339       351       383       340       345       366
      398       384       378       399       385       377       401       369
      419       366       436       395       401       434       456       444
      439       484       514       536       597       699       854       926
      978       962       891       734       679       600       553       563
      489       477       439       467       418       440       461       391
      464       493       510       566       614       737       747       734
      679       601       570       567       476       504       438       396
      426       400       394       392       401       374       364       386
      427       380       358       398       382       364       368       350
      387       384       407       339       345       374       367       407
      382       388       391       342       381       330       381       383
      379       395       398       381       335       348       363       346
      401